File: Liquid_crystals/data/SampleX.txt
 q(Å⁻¹) Intensity(abs.units*thickness) sigma(abs.units*thickness)
0.019717 0.00407816 0.000322891
0.020461 0.00331895 0.00028604
0.021206 0.00307052 0.000281922
0.021950 0.00309387 0.000272942
0.022694 0.00307581 0.000266028
0.023438 0.00263761 0.000252015
0.024182 0.0034248 0.000283888
0.024926 0.00309401 0.00026983
0.025670 0.00248452 0.000235208
0.026414 0.00271317 0.000243192
0.027158 0.00227472 0.00023006
0.027902 0.00251429 0.000228182
0.028646 0.00308184 0.000256504
0.029390 0.00259479 0.000231807
0.030134 0.00269731 0.000236343
0.030878 0.00270139 0.000236522
0.031622 0.00297895 0.000241244
0.032366 0.00262147 0.000229579
0.033110 0.00261258 0.000222793
0.033854 0.00244481 0.000217526
0.034598 0.00237929 0.000211646
0.035343 0.00244685 0.000211762
0.036087 0.00250706 0.000216274
0.036831 0.0022216 0.000199154
0.037575 0.00260061 0.000216409
0.038319 0.00260746 0.000214834
0.039063 0.00228929 0.000199602
0.039807 0.00211445 0.000191829
0.040551 0.00214588 0.000190082
0.041295 0.00234232 0.000196214
0.042039 0.00271145 0.000212806
0.042783 0.00247521 0.00020251
0.043527 0.00292004 0.000217363
0.044271 0.00215717 0.000186099
0.045015 0.00252187 0.000199675
0.045759 0.00230966 0.000188939
0.046503 0.00258006 0.0002012
0.047247 0.00292648 0.000208818
0.047991 0.00273816 0.000202719
0.048736 0.00279644 0.000207129
0.049480 0.00238237 0.000185756
0.050224 0.0025865 0.000194232
0.050968 0.00245361 0.000185303
0.051712 0.00251514 0.000192213
0.052456 0.00252581 0.00018801
0.053200 0.00287388 0.000198545
0.053944 0.00270581 0.000196599
0.054688 0.00273227 0.000189256
0.055432 0.00254881 0.000188232
0.056176 0.00252292 0.000184209
0.056920 0.00245528 0.000179409
0.057664 0.00260816 0.000186692
0.058408 0.002637758 0.000182524
0.059152 0.00247732 0.00018195
0.059896 0.0031819 0.000199862
0.060640 0.00274596 0.000184552
0.061384 0.00282645 0.00019129
0.062128 0.0029134 0.000189531
0.062873 0.00295109 0.000191899
0.063617 0.00287896 0.000184602
0.064361 0.00309299 0.000193567
0.065105 0.0031048 0.000192813
0.065849 0.00277039 0.000180575
0.066593 0.0030284 0.000188797
0.067337 0.00286013 0.000181934
0.068081 0.00311777 0.000191023
0.068825 0.00321236 0.000190176
0.069569 0.00288264 0.0001811396
0.070313 0.0032957 0.000193154
0.071057 0.002945 0.000180145
0.071801 0.00303202 0.000184764
0.072545 0.00284059 0.00017372
0.073289 0.00303975 0.000181579
0.074033 0.00350836 0.000194062
0.074777 0.00307876 0.000183707
0.075521 0.00347067 0.00019252
0.076266 0.00322622 0.000181456
0.077010 0.00328706 0.000187845
0.077754 0.00362732 0.000191935
0.078498 0.00348912 0.000190595
0.079242 0.00377327 0.000196728
0.079986 0.00348223 0.0001853546
0.080730 0.00348536 0.000189545
0.081474 0.00415403 0.000201491
0.082218 0.0036566 0.000190853
0.082962 0.00346804 0.000184106
0.083706 0.00371409 0.000190078
0.084450 0.00414234 0.000202168
0.085194 0.00404839 0.000194826
0.085938 0.00394204 0.0001949149
0.086682 0.00437588 0.000201645
0.087426 0.00440059 0.00020452
0.088170 0.00402823 0.000197038
0.088914 0.00425086 0.000194019
0.089658 0.00430222 0.000201304
0.090403 0.00446794 0.000201514
0.091147 0.00432503 0.000196975
0.091891 0.0046818 0.000206737
0.092635 0.00465856 0.000203552
0.093379 0.00462341 0.000204995
0.094123 0.00462744 0.000199893
0.094867 0.00457851 0.000199668
0.095611 0.00482161 0.000205333
0.096355 0.00483444 0.000205608
0.097099 0.0050733 0.000211073
0.097843 0.00522383 0.000207684
0.098587 0.0053268 0.000215374
0.099331 0.005248 0.000209846
0.100075 0.00567762 0.000218268
0.100819 0.00574816 0.000219178
0.101563 0.0056228 0.00021378
0.102307 0.00565137 0.000216891
0.103051 0.00599367 0.000221155
0.103795 0.00633696 0.000227402
0.104540 0.00599896 0.000218268
0.105284 0.00625464 0.0002254795
0.106028 0.00633252 0.000226881
0.106772 0.00650598 0.000226015
0.107516 0.0069512 0.000233181
0.108260 0.00687089 0.000231831
0.109004 0.00735638 0.000239884
0.109748 0.0070291 0.000233609
0.110492 0.00721015 0.00023229
0.111236 0.00749692 0.000243089
0.111980 0.00740702 0.000236298
0.112724 0.00767364 0.000242732
0.113468 0.00815012 0.000245211
0.114212 0.00818325 0.000247479
0.114956 0.00865357 0.000256351
0.115700 0.008515 0.000250646
0.116444 0.00932134 0.000261319
0.117188 0.00966328 0.00026284
0.117933 0.00943243 0.000263809
0.118677 0.0100405 0.000273156
0.119421 0.0100606 0.000265913
0.120165 0.0102746 0.000271974
0.120909 0.0101911 0.000267637
0.121653 0.01063 0.000277124
0.122397 0.0114433 0.000283608
0.123141 0.0122136 0.000289106
0.123885 0.0116866 0.000289071
0.124629 0.0122044 0.000288053
0.125373 0.0125829 0.000295408
0.126117 0.0137444 0.000305691
0.126861 0.0134527 0.000301939
0.127605 0.013689 0.000308642
0.128349 0.0136465 0.000316227
0.129093 0.0153418 0.000345846
0.129837 0.0156563 0.000350034
0.130581 0.0164243 0.000363351
0.131325 0.0168883 0.000373554
0.132070 0.017778 0.000380252
0.132814 0.0181665 0.000392154
0.133558 0.0186493 0.000394131
0.134302 0.019558 0.000409418
0.135046 0.0201557 0.000411402
0.135790 0.021429 0.000426802
0.136534 0.0228978 0.000446717
0.137278 0.0236499 0.000452103
0.138022 0.0240853 0.0004601
0.138766 0.0252021 0.00046478
0.139510 0.0256916 0.000479283
0.140254 0.0281252 0.000503649
0.140998 0.02968892 0.000510846
0.141742 0.030351 0.000520949
0.142486 0.0330963 0.000541675
0.143230 0.0347476 0.000566021
0.143974 0.0384061 0.000588574
0.144718 0.053931 0.00069899
0.145463 0.129351 0.00109455
0.146207 0.22356 0.00141394
0.146951 0.595407 0.00236425
0.147695 1.30156 0.00341173
0.148439 1.38037 0.00357573
0.149183 1.02067 0.00310261
0.149927 0.56256 0.00226763
0.150671 0.283308 0.00165354
0.151415 0.124758 0.00105633
0.152159 0.0623679 0.000768726
0.152903 0.043188 0.000638245
0.153647 0.0382684 0.000598088
0.154391 0.0330467 0.00056346
0.155135 0.0316308 0.000537741
0.155879 0.0300075 0.00053944
0.156623 0.0291419 0.000525505
0.157367 0.0286821 0.000521348
0.158111 0.0270206 0.00050953
0.158855 0.0263967 0.000497889
0.159600 0.0260445 0.000501415
0.160344 0.026715 0.000503174
0.161088 0.025301 0.000490805
0.161832 0.0241517 0.000487423
0.162576 0.0234895 0.000477317
0.163320 0.0233995 0.000479782
0.164064 0.0220611 0.000453156
0.164808 0.022053 0.000463592
0.165552 0.0212702 0.00045423
0.166296 0.0216682 0.000458465
0.167040 0.0234066 0.000476506
0.167784 0.0263897 0.000505966
0.168528 0.0419821 0.000647316
0.169272 0.0657158 0.000792914
0.170016 0.0738569 0.000852472
0.170760 0.0596455 0.000762483
0.171504 0.05607854 0.000746382
0.172248 0.0519135 0.00072511
0.172992 0.0413588 0.000621947
0.173737 0.0318974 0.00057119
0.174481 0.0211606 0.000449977
0.175225 0.0181298 0.000431699
0.175969 0.0162369 0.000395085
0.176713 0.0160056 0.000394095
0.177457 0.0145675 0.00038603
0.178201 0.0144758 0.000373925
0.178945 0.0143521 0.000380374
0.179689 0.0131452 0.000359696
0.180433 0.0135897 0.000369247
0.181177 0.0133204 0.000369158
0.181921 0.01347042 0.000359892
0.182665 0.012181 0.000349599
0.183409 0.0117199 0.00034459
0.184153 0.0123079 0.000353133
0.184897 0.011324 0.000336277
0.185641 0.0106312 0.000321985
0.186385 0.01154 0.000339479
0.187130 0.0114573 0.000342404
0.187874 0.010479 0.000324284
0.188618 0.0114804 0.00033943
0.189362 0.0106989 0.000326105
0.190106 0.0103626 0.000324853
0.190850 0.0103068 0.000325581
0.191594 0.00976322 0.00030932
0.192338 0.0101516 0.000321541
0.193082 0.00952928 0.000313072
0.193826 0.00936375 0.000305104
0.194570 0.00941273 0.000308124
0.195314 0.00982952 0.000314115
0.196058 0.00905121 0.000305892
0.196802 0.00946528 0.000312815
0.197546 0.00957762 0.00030933
0.198290 0.00905035 0.000301424
0.199034 0.00932399 0.000306693
0.199778 0.00854792 0.000297286
0.200522 0.00884727 0.000300219
0.201267 0.00827554 0.000289651
0.202011 0.00825786 0.00029221
0.202755 0.00839945 0.000293253
0.203499 0.00835092 0.000290272
0.204243 0.00830493 0.000289476
0.204987 0.00791249 0.000285341
0.205731 0.0084355 0.000294625
0.206475 0.00777509 0.000281471
0.207219 0.00813097 0.000287141
0.207963 0.00765579 0.000281387
0.208707 0.00708397 0.000270679
0.209451 0.00782933 0.000281777
0.210195 0.00728579 0.000274515
0.210939 0.00676165 0.00026446
0.211683 0.00715893 0.000269455
0.212427 0.00748388 0.000277544
0.213171 0.0070978 0.000269628
0.213915 0.00713851 0.000273108
0.214660 0.00700588 0.000269213
0.215404 0.00676347 0.000263863
0.216148 0.00708761 0.00026945
0.216892 0.00732062 0.000274524
0.217636 0.006997596 0.000269742
0.218380 0.00693831 0.000269274
0.219124 0.0064715 0.000256228
0.219868 0.00649449 0.000257948
0.220612 0.00656052 0.000261197
0.221356 0.00725039 0.00027528
0.222100 0.00751244 0.000278126
0.222844 0.00794844 0.000286798
0.223588 0.00930214 0.000314198
0.224332 0.0109481 0.00033494
0.225076 0.0120152 0.000350889
0.225820 0.0131293 0.000372347
0.226564 0.0118261 0.000348128
0.227308 0.0104533 0.000330578
0.228052 0.00943634 0.00031175
0.228797 0.00732095 0.000274596
0.229541 0.00678427 0.000267677
0.230285 0.00659219 0.000263198
0.231029 0.0068469 0.000264914
0.231773 0.00594169 0.000249882
0.232517 0.00649585 0.00025868
0.233261 0.00662787 0.000265269
0.234005 0.0060493 0.000249638
0.234749 0.00600021 0.000251762
0.235493 0.0061505 0.000259553
0.236237 0.00602591 0.000256915
0.236981 0.00652549 0.000266656
0.237725 0.00543357 0.000247243
0.238469 0.00601031 0.000260744
0.239213 0.0060859 0.000266768
0.239957 0.00608297 0.000266708
0.240701 0.00765267 0.000298316
0.241445 0.00838006 0.00031663
0.242189 0.00994641 0.000348995
0.242934 0.0113311 0.000368196
0.243678 0.0136799 0.00041296
0.244422 0.0126413 0.000400595
0.245166 0.00862493 0.000329894
0.245910 0.00646949 0.000287466
0.246654 0.00639784 0.00028243
0.247398 0.00628005 0.000279823
0.248142 0.00593269 0.000274455
0.248886 0.00576289 0.000268063
0.249630 0.00544144 0.00025667
0.250374 0.00566572 0.000260401
0.251118 0.00496858 0.000245272
0.251862 0.00524563 0.000247738
0.252606 0.00579573 0.000256826
0.253350 0.00550286 0.000251636
0.254094 0.00538731 0.000245615
0.254838 0.00533872 0.000243855
0.255582 0.00548095 0.000240125
0.256327 0.00542396 0.000238877
0.257071 0.00484467 0.00022808
0.257815 0.00551823 0.000240952
0.258559 0.00526241 0.000232389
0.259303 0.00542144 0.000240054
0.260047 0.00543116 0.000240273
0.260791 0.00513058 0.000234734
0.261535 0.0047655 0.000223936
0.262279 0.00526464 0.000233612
0.263023 0.00504552 0.0002310132
0.263767 0.00530571 0.000238724
0.264511 0.00536634 0.00023413
0.265255 0.00529875 0.000238576
0.265999 0.00540216 0.000240897
0.266743 0.00513629 0.000232513
0.267487 0.0058082 0.000246019
0.268231 0.00694597 0.000269044
0.268975 0.00767805 0.000287956
0.269719 0.00811539 0.000296818
0.270464 0.00846284 0.000294061
0.271208 0.00967018 0.00031988
0.271952 0.00885027 0.000308381
0.272696 0.00732208 0.0002805014
0.273440 0.00599842 0.000248197
0.274184 0.00561507 0.00024439
0.274928 0.00502416 0.00023177
0.275672 0.00488289 0.000227909
0.276416 0.00490931 0.000227372
0.277160 0.00536492 0.000238295
0.277904 0.00511902 0.000235174
0.278648 0.00544309 0.000241262
0.279392 0.00538519 0.000234626
0.280136 0.00510477 0.000233653
0.280880 0.00611746 0.000254484
0.281624 0.00746116 0.000283216
0.282368 0.00869447 0.000306526
0.283112 0.00868783 0.000300255
0.283856 0.00810457 0.000294434
0.284601 0.00718688 0.000277269
0.285345 0.00678488 0.00026872
0.286089 0.00572736 0.000246896
0.286833 0.00494983 0.000229531
0.287577 0.00495971 0.000228026
0.288321 0.00419209 0.000210171
0.289065 0.00437707 0.000217527
0.289809 0.00414003 0.000210471
0.290553 0.00465062 0.000222507
0.291297 0.00427928 0.00021399
0.292041 0.00457016 0.000218913
0.292785 0.00494985 0.000231345
0.293529 0.00496509 0.000228185
0.294273 0.00513364 0.000235001
0.295017 0.00502389 0.000231291
0.295761 0.00567926 0.000242842
0.296505 0.0059674 0.000252087
0.297249 0.0053598 0.000237105
0.297994 0.00529294 0.000238644
0.298738 0.00490283 0.000227354
0.299482 0.00439528 0.000216918
0.300226 0.00434514 0.000212969
0.300970 0.00442787 0.000217174
0.301714 0.0038745 0.000204199
0.302458 0.00401849 0.000206899
0.303202 0.00409659 0.000209439
0.303946 0.00432594 0.000210943
0.304690 0.00417418 0.000212515
0.305434 0.00422727 0.000213314
0.306178 0.00413194 0.000208759
0.306922 0.00382622 0.000203477
0.307666 0.00430162 0.000213551
0.308410 0.00418466 0.000209046
0.309154 0.0044118 0.000217943
0.309898 0.00432517 0.000214693
0.310642 0.0037624 0.000202319
0.311386 0.0036979 0.000198524
0.312131 0.00353326 0.000193076
0.312875 0.00329444 0.000188353
0.313619 0.00333865 0.000187219
0.314363 0.00286709 0.000174821
0.315107 0.00301011 0.000180519
0.315851 0.00300578 0.000179007
0.316595 0.00297969 0.000177779
0.317339 0.00284052 0.000174469
0.318083 0.00307726 0.000181598
0.318827 0.0032104 0.000185966
0.319571 0.00307693 0.000180672
0.320315 0.00300043 0.000177073
0.321059 0.0028971 0.000177589
0.321803 0.00293687 0.000177426
0.322547 0.00348344 0.00019474
0.323291 0.00292791 0.000177163
0.324035 0.00317079 0.000182507
0.324779 0.00268422 0.000168775
0.325524 0.00287534 0.000176029
0.326268 0.00284615 0.000175137
0.327012 0.00293502 0.000176945
0.327756 0.002780675 0.000173119
0.328500 0.00269438 0.000169977
0.329244 0.00329747 0.000187565
0.329988 0.00290679 0.000176558
0.330732 0.00287466 0.000175584
0.331476 0.00275431 0.000172761
0.332220 0.00297685 0.000177776
0.332964 0.00308379 0.000180945
0.333708 0.002901 0.000177775
0.334452 0.00296253 0.000178267
0.335196 0.00271745 0.0001720666
0.335940 0.00286298 0.000173484
0.336684 0.0029074 0.000177525
0.337428 0.00266013 0.000168507
0.338172 0.00250075 0.000163385
0.338916 0.00257422 0.00016749
0.339661 0.00290517 0.000177015
0.340405 0.00321749 0.000185339
0.341149 0.0029824 0.000178444
0.341893 0.002753238 0.000172782
0.342637 0.00293584 0.000177507
0.343381 0.00259998 0.00018617
0.344125 0.00285237 0.000205768
0.344869 0.00294525 0.000216931
0.345613 0.00267453 0.000218744
0.346357 0.00287867 0.000230926
0.347101 0.0029 0.000240453
0.347845 0.00296105 0.000246524
0.348589 0.00239168 0.000230799
0.349333 0.00208354 0.000226542
0.350077 0.00292352 0.00027322
0.350821 0.00255073 0.000265096
0.351565 0.00330753 0.00031455
0.352309 0.00278916 0.000286817
0.353053 0.00353889 0.000345737
0.353798 0.00307627 0.00033045
0.354542 0.00293445 0.000343788
0.355286 0.00259765 0.00033322
0.356030 0.00285121 0.000349113
0.356774 0.00287874 0.000378911
0.357518 0.00378921 0.000457039
0.358262 0.00263174 0.000402683
0.359006 0.00316782 0.000478379
0.359750 0.00363254 0.00049548
0.360494 0.00336136 0.000553359
0.361238 0.00239614 0.000501031
0.361982 0.00318092 0.00062616
0.362726 0.00191224 0.000555192
0.363470 0.00169756 0.000568684
0.364214 0.00266041 0.000892464
0.364958 0.00361186 0.00137566
0.365702 -9.54464e-06 0.000141437